<Bundle xmlns="http://hl7.org/fhir">
   <id value="3-VaccinationRecord"></id>
   <meta>
      <lastUpdated value="2021-02-05T07:42:15.807+01:00"></lastUpdated>
      <profile value="http://fhir.ch/ig/ch-vacd/StructureDefinition/ch-vacd-document-vaccination-record"></profile>
   </meta>
   <identifier>
      <system value="urn:ietf:rfc:3986"></system>
      <value value="urn:uuid:ca20ca9e-c4d2-4fbc-af1f-09179166132b"></value>
   </identifier>
   <type value="document"></type>
   <timestamp value="2021-02-05T07:42:15.788+01:00"></timestamp>
   <entry>
      <fullUrl value="http://test.fhir.ch/r4/Composition/ch-vacd-document-vaccination-record"></fullUrl>
      <resource>
         <Composition xmlns="http://hl7.org/fhir">
            <id value="ch-vacd-document-vaccination-record"></id>
            <meta>
               <profile value="http://fhir.ch/ig/ch-vacd/StructureDefinition/ch-vacd-composition-vaccination-record"></profile>
            </meta>
            <language value="en-US"></language>
            <text>
               <status value="generated"></status>
               <div xmlns="http://www.w3.org/1999/xhtml" xml:lang="en-US" lang="en-US">This is the composition vaccination record.</div>
            </text>
            <extension url="http://fhir.ch/ig/ch-core/StructureDefinition/ch-ext-epr-setid">
               <valueIdentifier>
                  <system value="urn:ietf:rfc:3986"></system>
                  <value value="urn:uuid:ca20ca9e-c4d2-4fbc-af1f-09179166132b"></value>
               </valueIdentifier>
            </extension>
            <extension id="versionNumber" url="http://fhir.ch/ig/ch-core/StructureDefinition/ch-ext-epr-versionnumber">
               <valueUnsignedInt value="1"></valueUnsignedInt>
            </extension>
            <identifier>
               <system value="urn:oid:2.16.756.5.30.1.1.1.1"></system>
               <value value="c6c79499-de42-42c3-a971-ace3467673dd"></value>
            </identifier>
            <status value="final"></status>
            <type>
               <coding>
                  <system value="http://snomed.info/sct"></system>
                  <code value="41000179103"></code>
                  <display value="Immunization record"></display>
               </coding>
            </type>
            <subject>
               <reference value="Patient/patient1"></reference>
            </subject>
            <date value="2021-02-05T07:42:15+01:00"></date>
            <author>
               <reference value="Practitioner/practitioner1"></reference>
            </author>
            <title value="Vaccination Record"></title>
            <confidentiality value="N">
               <extension url="http://fhir.ch/ig/ch-core/StructureDefinition/ch-ext-epr-confidentialitycode">
                  <valueCodeableConcept>
                     <coding>
                        <system value="http://snomed.info/sct"></system>
                        <code value="17621005"></code>
                        <display value="Normal (qualifier value)"></display>
                     </coding>
                  </valueCodeableConcept>
               </extension>
            </confidentiality>
            <custodian>
               <reference value="Organization/organization1"></reference>
            </custodian>
            <section id="administration">
               <title value="Liste der verabreichten Impfungen"></title>
               <code>
                  <coding>
                     <system value="http://loinc.org"></system>
                     <code value="11369-6"></code>
                     <display value="Hx of Immunization"></display>
                  </coding>
               </code>
               <text>
                  <status value="generated"></status>
                  <div xmlns="http://www.w3.org/1999/xhtml" xml:lang="en-US" lang="en-US">This is the section containing all immunization entries.</div>
               </text>
               <entry>
                  <reference value="Immunization/immunization1"></reference>
               </entry>
               <entry>
                  <reference value="Immunization/immunization2"></reference>
               </entry>
               <entry>
                  <reference value="Immunization/immunization3"></reference>
               </entry>
               <entry>
                  <reference value="Immunization/immunization4"></reference>
               </entry>
            </section>
            <section id="medicalproblems">
               <title value="MedicalProblems"></title>
               <code>
                  <coding>
                     <system value="http://loinc.org"></system>
                     <code value="11450-4"></code>
                     <display value="Problem list Reported"></display>
                  </coding>
               </code>
               <text>
                  <status value="generated"></status>
                  <div xmlns="http://www.w3.org/1999/xhtml" xml:lang="en-US" lang="en-US">This is the section containing the medical problem entries.</div>
               </text>
               <entry>
                  <reference value="Observation/medicalRiskObservation1"></reference>
               </entry>
               <entry>
                  <reference value="Observation/medicalRiskObservation2"></reference>
               </entry>
            </section>
            <section id="sectionIlnessesUndergondeForImmunization1">
               <title value="Undergone illnesses for immunization"></title>
               <code>
                  <coding>
                     <system value="http://loinc.org"></system>
                     <code value="11348-0"></code>
                     <display value="Hx of Past illness"></display>
                  </coding>
               </code>
               <text>
                  <status value="generated"></status>
                  <div xmlns="http://www.w3.org/1999/xhtml" xml:lang="en-US" lang="en-US">This is the section containing the undergone illnesses for immunization entries.</div>
               </text>
               <entry>
                  <reference value="Observation/pastIllnessObservation1"></reference>
               </entry>
            </section>
            <section id="allergies">
               <title value="Allergies"></title>
               <code>
                  <coding>
                     <system value="http://loinc.org"></system>
                     <code value="48765-2"></code>
                     <display value="Allergies and adverse reactions Document"></display>
                  </coding>
               </code>
               <text>
                  <status value="generated"></status>
                  <div xmlns="http://www.w3.org/1999/xhtml" xml:lang="en-US">This is the section containing the allergy entries.</div>
               </text>
               <entry>
                  <reference value="Observation/allergyObservation1"></reference>
               </entry>
               <entry>
                  <reference value="Observation/allergyObservation2"></reference>
               </entry>
            </section>
            <section id="sectionLab1">
               <title value="Lab"></title>
               <code>
                  <coding>
                     <system value="http://loinc.org"></system>
                     <code value="18727-8"></code>
                     <display value="Serology studies (set)"></display>
                  </coding>
               </code>
               <text>
                  <status value="generated"></status>
                  <div xmlns="http://www.w3.org/1999/xhtml" xml:lang="en-US" lang="en-US">This is the section containing the lab entries.</div>
               </text>
               <entry>
                  <reference value="Observation/labObservation1"></reference>
               </entry>
            </section>
            <section id="pregnancy">
               <title value="Pregnancy"></title>
               <code>
                  <coding>
                     <system value="http://loinc.org"></system>
                     <code value="10162-6"></code>
                     <display value="Pregnancies Hx"></display>
                  </coding>
               </code>
               <text>
                  <status value="generated"></status>
                  <div xmlns="http://www.w3.org/1999/xhtml" xml:lang="en-US" lang="en-US">This is the section containing the pregnancy status entry.</div>
               </text>
               <entry>
                  <reference value="Observation/pregnancyObservation1"></reference>
               </entry>
            </section>
            <section id="sectionImmunizationRecomendations1">
               <title value="Impf Empfehlungen"></title>
               <code>
                  <coding>
                     <system value="http://loinc.org"></system>
                     <code value="18776-5"></code>
                     <display value="Plan of care note"></display>
                  </coding>
               </code>
               <text>
                  <status value="generated"></status>
                  <div xmlns="http://www.w3.org/1999/xhtml" xml:lang="en-US" lang="en-US">This is the section containing all immunization recommendations entries.</div>
               </text>
               <entry>
                  <reference value="ImmunizationRecommendation/immunizationRecommendation1"></reference>
               </entry>
               <entry>
                  <reference value="ImmunizationRecommendation/immunizationRecommendation2"></reference>
               </entry>
            </section>
            <section id="annotation">
               <title value="Kommentar"></title>
               <text>
                  <status value="generated"></status>
                  <div xmlns="http://www.w3.org/1999/xhtml" xml:lang="en-US">This is the section containing all immunization entries.</div>
               </text>
            </section>
         </Composition>
      </resource>
   </entry>
   <entry>
      <fullUrl value="http://test.fhir.ch/r4/Patient/patient1"></fullUrl>
      <resource>
         <Patient xmlns="http://hl7.org/fhir">
            <id value="patient1"></id>
            <meta>
               <profile value="http://fhir.ch/ig/ch-core/StructureDefinition/ch-core-patient"></profile>
            </meta>
            <text>
               <status value="generated"></status>
               <div xmlns="http://www.w3.org/1999/xhtml">
                  <div class="hapiHeaderText">Monika 
                     <b>WEGMUELLER </b>
                  </div>
                  <table class="hapiPropertyTable">
                     <tbody>
                        <tr>
                           <td>Identifier</td>
                           <td>1477284956984000</td>
                        </tr>
                        <tr>
                           <td>Address</td>
                           <td>
                              <span>Wiesenstr. 12 </span>
                              <br></br>
                              <span>Zürich </span>
                              <span>CH </span>
                           </td>
                        </tr>
                        <tr>
                           <td>Date of birth</td>
                           <td>
                              <span>15 June 1943</span>
                           </td>
                        </tr>
                     </tbody>
                  </table>
               </div>
            </text>
            <identifier>
               <system value="urn:oid:2.16.756.5.30.1.147.1.1"></system>
               <value value="1477284956984000"></value>
            </identifier>
            <name>
               <family value="Wegmueller"></family>
               <given value="Monika"></given>
            </name>
            <gender value="female"></gender>
            <birthDate value="1943-06-15"></birthDate>
            <address>
               <type value="both"></type>
               <line value="Wiesenstr. 12"></line>
               <city value="Zürich"></city>
               <postalCode value="8003"></postalCode>
               <country value="CH"></country>
            </address>
         </Patient>
      </resource>
   </entry>
   <entry>
      <fullUrl value="http://test.fhir.ch/r4/Practitioner/practitioner1"></fullUrl>
      <resource>
         <Practitioner xmlns="http://hl7.org/fhir">
            <id value="practitioner1"></id>
            <meta>
               <profile value="http://fhir.ch/ig/ch-core/StructureDefinition/ch-core-practitioner-epr"></profile>
            </meta>
            <identifier>
               <system value="urn:oid:2.51.1.3"></system>
               <value value="2000000000030"></value>
            </identifier>
            <active value="true"></active>
            <name>
               <family value="Demo"></family>
               <given value="Detlef"></given>
            </name>
         </Practitioner>
      </resource>
   </entry>
   <entry>
      <fullUrl value="http://test.fhir.ch/r4/Organization/organization1"></fullUrl>
      <resource>
         <Organization xmlns="http://hl7.org/fhir">
            <id value="organization1"></id>
            <meta>
               <profile value="http://fhir.ch/ig/ch-core/StructureDefinition/ch-core-organization-epr"></profile>
            </meta>
            <identifier>
               <system value="urn:oid:2.51.1.3"></system>
               <value value="2010000000030"></value>
            </identifier>
            <name value="Praxis Dr. Detlef Demo"></name>
            <address>
               <line value="Tobelweg 4"></line>
               <city value="Küsnacht ZH"></city>
               <state value="ZH"></state>
               <postalCode value="8700"></postalCode>
               <country value="CH"></country>
            </address>
         </Organization>
      </resource>
   </entry>
   <entry>
      <fullUrl value="http://test.fhir.ch/r4/PractitionerRole/practitionerRole1"></fullUrl>
      <resource>
         <PractitionerRole xmlns="http://hl7.org/fhir">
            <id value="practitionerRole1"></id>
            <active value="true"></active>
            <practitioner>
               <reference value="Practitioner/practitioner1"></reference>
            </practitioner>
            <organization>
               <reference value="Organization/organization1"></reference>
            </organization>
         </PractitionerRole>
      </resource>
   </entry>
   <entry>
      <fullUrl value="http://test.fhir.ch/r4/Practitioner/practitioner2"></fullUrl>
      <resource>
         <Practitioner xmlns="http://hl7.org/fhir">
            <id value="practitioner2"></id>
            <meta>
               <profile value="http://fhir.ch/ig/ch-core/StructureDefinition/ch-core-practitioner-epr"></profile>
            </meta>
            <identifier>
               <system value="urn:oid:2.51.1.3"></system>
               <value value="2000000000031"></value>
            </identifier>
            <active value="true"></active>
            <name>
               <family value="Muster"></family>
               <given value="Max"></given>
            </name>
         </Practitioner>
      </resource>
   </entry>
   <entry>
      <fullUrl value="http://test.fhir.ch/r4/Immunization/immunization1"></fullUrl>
      <resource>
         <Immunization xmlns="http://hl7.org/fhir">
            <id value="immunization1"></id>
            <meta>
               <profile value="http://fhir.ch/ig/ch-vacd/StructureDefinition/ch-vacd-section-immunization"></profile>
            </meta>
            <identifier>
               <system value="urn:oid:2.16.756.5.30.1.147.1.3.1"></system>
               <value value="12345"></value>
            </identifier>
            <status value="completed"></status>
            <vaccineCode>
               <coding>
                  <system value="http://swissmedic.ch/ns/authorizationnumber/vs"></system>
                  <code value="637"></code>
                  <display value="Boostrix"></display>
               </coding>
            </vaccineCode>
            <patient>
               <reference value="Patient/patient1"></reference>
            </patient>
            <occurrenceDateTime value="2013-09-15T07:42:15+02:00"></occurrenceDateTime>
            <recorded value="2013-09-15T07:42:15+02:00"></recorded>
            <lotNumber value="12345"></lotNumber>
            <performer>
               <actor>
                  <reference value="Practitioner/practitioner2"></reference>
               </actor>
            </performer>
            <reasonCode>
               <coding>
                  <system value="http://terminology.hl7.org/CodeSystem/v3-ActCode"></system>
                  <code value="IMMUNIZ"></code>
                  <display value="Immunization"></display>
               </coding>
            </reasonCode>
            <protocolApplied>
               <targetDisease>
                  <coding>
                     <system value="http://snomed.info/sct"></system>
                     <code value="76668005"></code>
                     <display value="Diphtheria immunization"></display>
                  </coding>
               </targetDisease>
               <targetDisease>
                  <coding>
                     <system value="http://snomed.info/sct"></system>
                     <code value="127786006"></code>
                     <display value="Tetanus vaccination"></display>
                  </coding>
               </targetDisease>
               <targetDisease>
                  <coding>
                     <system value="http://snomed.info/sct"></system>
                     <code value="39343008"></code>
                     <display value="Pertussis vaccination"></display>
                  </coding>
               </targetDisease>
               <doseNumberPositiveInt value="1"></doseNumberPositiveInt>
            </protocolApplied>
         </Immunization>
      </resource>
   </entry>
   <entry>
      <fullUrl value="http://test.fhir.ch/r4/Immunization/immunization2"></fullUrl>
      <resource>
         <Immunization xmlns="http://hl7.org/fhir">
            <id value="immunization2"></id>
            <meta>
               <profile value="http://fhir.ch/ig/ch-vacd/StructureDefinition/ch-vacd-section-immunization"></profile>
            </meta>
            <identifier>
               <system value="urn:oid:2.16.756.5.30.1.147.1.3.1"></system>
               <value value="23456"></value>
            </identifier>
            <status value="completed"></status>
            <vaccineCode>
               <coding>
                  <system value="http://swissmedic.ch/ns/authorizationnumber/vs"></system>
                  <code value="637"></code>
                  <display value="Boostrix"></display>
               </coding>
            </vaccineCode>
            <patient>
               <reference value="Patient/patient1"></reference>
            </patient>
            <occurrenceDateTime value="2014-08-12T07:42:15+02:00"></occurrenceDateTime>
            <recorded value="2014-08-12T07:42:15+02:00"></recorded>
            <lotNumber value="12345"></lotNumber>
            <performer>
               <actor>
                  <reference value="Practitioner/practitioner2"></reference>
               </actor>
            </performer>
            <reasonCode>
               <coding>
                  <system value="http://terminology.hl7.org/CodeSystem/v3-ActCode"></system>
                  <code value="IMMUNIZ"></code>
                  <display value="Immunization"></display>
               </coding>
            </reasonCode>
            <protocolApplied>
               <targetDisease>
                  <coding>
                     <system value="http://snomed.info/sct"></system>
                     <code value="76668005"></code>
                     <display value="Diphtheria immunization"></display>
                  </coding>
               </targetDisease>
               <targetDisease>
                  <coding>
                     <system value="http://snomed.info/sct"></system>
                     <code value="127786006"></code>
                     <display value="Tetanus vaccination"></display>
                  </coding>
               </targetDisease>
               <targetDisease>
                  <coding>
                     <system value="http://snomed.info/sct"></system>
                     <code value="39343008"></code>
                     <display value="Pertussis vaccination"></display>
                  </coding>
               </targetDisease>
               <doseNumberPositiveInt value="1"></doseNumberPositiveInt>
            </protocolApplied>
         </Immunization>
      </resource>
   </entry>
   <entry>
      <fullUrl value="http://test.fhir.ch/r4/Immunization/immunization3"></fullUrl>
      <resource>
         <Immunization xmlns="http://hl7.org/fhir">
            <id value="immunization3"></id>
            <meta>
               <profile value="http://fhir.ch/ig/ch-vacd/StructureDefinition/ch-vacd-section-immunization"></profile>
            </meta>
            <identifier>
               <system value="urn:oid:2.16.756.5.30.1.147.1.3.1"></system>
               <value value="34567"></value>
            </identifier>
            <status value="completed"></status>
            <vaccineCode>
               <coding>
                  <system value="http://swissmedic.ch/ns/authorizationnumber/vs"></system>
                  <code value="637"></code>
                  <display value="Boostrix"></display>
               </coding>
            </vaccineCode>
            <patient>
               <reference value="Patient/patient1"></reference>
            </patient>
            <occurrenceDateTime value="2015-11-01T07:42:15+01:00"></occurrenceDateTime>
            <recorded value="2015-11-01T07:42:15+01:00"></recorded>
            <lotNumber value="12345"></lotNumber>
            <performer>
               <actor>
                  <reference value="Practitioner/practitioner2"></reference>
               </actor>
            </performer>
            <reasonCode>
               <coding>
                  <system value="http://terminology.hl7.org/CodeSystem/v3-ActCode"></system>
                  <code value="IMMUNIZ"></code>
                  <display value="Immunization"></display>
               </coding>
            </reasonCode>
            <protocolApplied>
               <targetDisease>
                  <coding>
                     <system value="http://snomed.info/sct"></system>
                     <code value="76668005"></code>
                     <display value="Diphtheria immunization"></display>
                  </coding>
               </targetDisease>
               <targetDisease>
                  <coding>
                     <system value="http://snomed.info/sct"></system>
                     <code value="127786006"></code>
                     <display value="Tetanus vaccination"></display>
                  </coding>
               </targetDisease>
               <targetDisease>
                  <coding>
                     <system value="http://snomed.info/sct"></system>
                     <code value="39343008"></code>
                     <display value="Pertussis vaccination"></display>
                  </coding>
               </targetDisease>
               <doseNumberPositiveInt value="1"></doseNumberPositiveInt>
            </protocolApplied>
         </Immunization>
      </resource>
   </entry>
   <entry>
      <fullUrl value="http://test.fhir.ch/r4/Immunization/immunization4"></fullUrl>
      <resource>
         <Immunization xmlns="http://hl7.org/fhir">
            <id value="immunization4"></id>
            <meta>
               <profile value="http://fhir.ch/ig/ch-vacd/StructureDefinition/ch-vacd-section-immunization"></profile>
            </meta>
            <identifier>
               <system value="urn:oid:2.16.756.5.30.1.147.1.3.1"></system>
               <value value="45678"></value>
            </identifier>
            <status value="completed"></status>
            <vaccineCode>
               <coding>
                  <system value="http://swissmedic.ch/ns/authorizationnumber/vs"></system>
                  <code value="268"></code>
                  <display value="MMR-II"></display>
               </coding>
            </vaccineCode>
            <patient>
               <reference value="Patient/patient1"></reference>
            </patient>
            <occurrenceDateTime value="2016-03-05T07:42:15+01:00"></occurrenceDateTime>
            <recorded value="2016-03-05T07:42:15+01:00"></recorded>
            <lotNumber value="12345"></lotNumber>
            <performer>
               <actor>
                  <reference value="Practitioner/practitioner1"></reference>
               </actor>
            </performer>
            <reasonCode>
               <coding>
                  <system value="http://terminology.hl7.org/CodeSystem/v3-ActCode"></system>
                  <code value="IMMUNIZ"></code>
                  <display value="Immunization"></display>
               </coding>
            </reasonCode>
            <protocolApplied>
               <targetDisease>
                  <coding>
                     <system value="http://snomed.info/sct"></system>
                     <code value="47435007"></code>
                     <display value="Measles vaccination"></display>
                  </coding>
               </targetDisease>
               <targetDisease>
                  <coding>
                     <system value="http://snomed.info/sct"></system>
                     <code value="50583002"></code>
                     <display value="Mumps vaccination"></display>
                  </coding>
               </targetDisease>
               <targetDisease>
                  <coding>
                     <system value="http://snomed.info/sct"></system>
                     <code value="82314000"></code>
                     <display value="Rubella vaccination"></display>
                  </coding>
               </targetDisease>
               <doseNumberPositiveInt value="1"></doseNumberPositiveInt>
            </protocolApplied>
         </Immunization>
      </resource>
   </entry>
   <entry>
      <fullUrl value="http://test.fhir.ch/r4/Observation/medicalRiskObservation1"></fullUrl>
      <resource>
         <Observation xmlns="http://hl7.org/fhir">
            <id value="medicalRiskObservation1"></id>
            <meta>
               <profile value="http://fhir.ch/ig/ch-vacd/StructureDefinition/ch-vacd-section-medical-problems"></profile>
            </meta>
            <status value="final"></status>
            <code>
               <coding>
                  <system value="http://snomed.info/sct"></system>
                  <code value="55607006"></code>
                  <display value="Problem"></display>
               </coding>
            </code>
            <subject>
               <reference value="Patient/patient1"></reference>
            </subject>
            <performer>
               <reference value="Practitioner/practitioner1"></reference>
            </performer>
            <valueCodeableConcept>
               <coding>
                  <system value="urn:oid:2.16.756.5.30.1.127.3.3.1"></system>
                  <code value="114036"></code>
                  <display value="ANDERE_LEBERERKRANKUNG"></display>
               </coding>
            </valueCodeableConcept>
         </Observation>
      </resource>
   </entry>
   <entry>
      <fullUrl value="http://test.fhir.ch/r4/Observation/medicalRiskObservation2"></fullUrl>
      <resource>
         <Observation xmlns="http://hl7.org/fhir">
            <id value="medicalRiskObservation2"></id>
            <meta>
               <profile value="http://fhir.ch/ig/ch-vacd/StructureDefinition/ch-vacd-section-medical-problems"></profile>
            </meta>
            <status value="final"></status>
            <code>
               <coding>
                  <system value="http://snomed.info/sct"></system>
                  <code value="55607006"></code>
                  <display value="Problem"></display>
               </coding>
            </code>
            <subject>
               <reference value="Patient/patient1"></reference>
            </subject>
            <performer>
               <reference value="Practitioner/practitioner1"></reference>
            </performer>
            <valueCodeableConcept>
               <coding>
                  <system value="urn:oid:2.16.756.5.30.1.127.3.3.2"></system>
                  <code value="213006"></code>
                  <display value="FLEDERMAUSFORSCHER_UND_SCHUETZER"></display>
               </coding>
            </valueCodeableConcept>
         </Observation>
      </resource>
   </entry>
   <entry>
      <fullUrl value="http://test.fhir.ch/r4/Observation/pastIllnessObservation1"></fullUrl>
      <resource>
         <Observation xmlns="http://hl7.org/fhir">
            <id value="pastIllnessObservation1"></id>
            <meta>
               <profile value="http://fhir.ch/ig/ch-vacd/StructureDefinition/ch-vacd-section-pastillnesses"></profile>
            </meta>
            <status value="final"></status>
            <code>
               <coding>
                  <system value="http://snomed.info/sct"></system>
                  <code value="14189004"></code>
                  <display value="Measles (disorder)"></display>
               </coding>
            </code>
            <subject>
               <reference value="Patient/patient1"></reference>
            </subject>
            <performer>
               <reference value="Practitioner/practitioner1"></reference>
            </performer>
            <valueDateTime value="1965-12"></valueDateTime>
         </Observation>
      </resource>
   </entry>
   <entry>
      <fullUrl value="http://test.fhir.ch/r4/Observation/allergyObservation1"></fullUrl>
      <resource>
         <Observation xmlns="http://hl7.org/fhir">
            <id value="allergyObservation1"></id>
            <meta>
               <profile value="http://fhir.ch/ig/ch-vacd/StructureDefinition/ch-vacd-section-allergies"></profile>
            </meta>
            <status value="final"></status>
            <code>
               <coding>
                  <system value="http://snomed.info/sct"></system>
                  <code value="303300008"></code>
                  <display value="Egg protein (substance)"></display>
               </coding>
            </code>
            <subject>
               <reference value="Patient/patient1"></reference>
            </subject>
            <performer>
               <reference value="Practitioner/practitioner1"></reference>
            </performer>
            <valueBoolean value="true"></valueBoolean>
         </Observation>
      </resource>
   </entry>
   <entry>
      <fullUrl value="http://test.fhir.ch/r4/Observation/allergyObservation2"></fullUrl>
      <resource>
         <Observation xmlns="http://hl7.org/fhir">
            <id value="allergyObservation2"></id>
            <meta>
               <profile value="http://fhir.ch/ig/ch-vacd/StructureDefinition/ch-vacd-section-allergies"></profile>
            </meta>
            <status value="final"></status>
            <code>
               <coding>
                  <system value="http://snomed.info/sct"></system>
                  <code value="24079001"></code>
                  <display value="Atopic dermatitis (disorder)"></display>
               </coding>
            </code>
            <subject>
               <reference value="Patient/patient1"></reference>
            </subject>
            <performer>
               <reference value="Practitioner/practitioner1"></reference>
            </performer>
            <valueBoolean value="true"></valueBoolean>
         </Observation>
      </resource>
   </entry>
   <entry>
      <fullUrl value="http://test.fhir.ch/r4/Observation/labObservation1"></fullUrl>
      <resource>
         <Observation xmlns="http://hl7.org/fhir">
            <id value="labObservation1"></id>
            <meta>
               <profile value="http://fhir.ch/ig/ch-vacd/StructureDefinition/ch-vacd-section-laboratory-serology"></profile>
            </meta>
            <text>
               <status value="generated"></status>
               <div xmlns="http://www.w3.org/1999/xhtml" xml:lang="en-US">Es besteht ein Immunschutz gegen Hepatitis B.</div>
            </text>
            <status value="final"></status>
            <code>
               <coding>
                  <system value="http://loinc.org"></system>
                  <code value="16935-9"></code>
                  <display value="Hepatitis B virus surface Ab [Units/volume] in Serum"></display>
               </coding>
            </code>
            <subject>
               <reference value="Patient/patient1"></reference>
            </subject>
            <effectiveDateTime value="1971-10"></effectiveDateTime>
            <performer>
               <reference value="Practitioner/practitioner1"></reference>
            </performer>
            <valueQuantity>
               <value value="99.0"></value>
               <unit value="[iU]/L"></unit>
               <system value="http://unitsofmeasure.org"></system>
               <code value="[iU]/L"></code>
            </valueQuantity>
            <interpretation>
               <coding>
                  <system value="http://terminology.hl7.org/CodeSystem/v3-ObservationInterpretation"></system>
                  <code value="POS"></code>
                  <display value="Positive"></display>
               </coding>
            </interpretation>
         </Observation>
      </resource>
   </entry>
   <entry>
      <fullUrl value="http://test.fhir.ch/r4/Observation/pregnancyObservation1"></fullUrl>
      <resource>
         <Observation xmlns="http://hl7.org/fhir">
            <id value="pregnancyObservation1"></id>
            <meta>
               <profile value="http://fhir.ch/ig/ch-vacd/StructureDefinition/ch-vacd-section-pregnancy"></profile>
            </meta>
            <status value="final"></status>
            <code>
               <coding>
                  <system value="http://loinc.org"></system>
                  <code value="11779-6"></code>
                  <display value="Delivery date Estimated from last menstrual period"></display>
               </coding>
            </code>
            <subject>
               <reference value="Patient/patient1"></reference>
            </subject>
            <performer>
               <reference value="Practitioner/practitioner1"></reference>
            </performer>
            <valueDateTime value="2020-12"></valueDateTime>
         </Observation>
      </resource>
   </entry>
   <entry>
      <fullUrl value="http://test.fhir.ch/r4/ImmunizationRecommendation/immunizationRecommendation1"></fullUrl>
      <resource>
         <ImmunizationRecommendation xmlns="http://hl7.org/fhir">
            <id value="immunizationRecommendation1"></id>
            <meta>
               <profile value="http://fhir.ch/ig/ch-vacd/StructureDefinition/ch-vacd-section-immunization-recommendations"></profile>
            </meta>
            <identifier>
               <system value="urn:oid:2.16.756.5.30.1.147.1.3.1"></system>
               <value value="1"></value>
            </identifier>
            <patient>
               <reference value="Patient/patient1"></reference>
            </patient>
            <date value="2021-02-05T07:42:15+01:00"></date>
            <recommendation>
               <vaccineCode>
                  <coding>
                     <system value="http://swissmedic.ch/ns/authorizationnumber/vs"></system>
                     <code value="681"></code>
                     <display value="Boostrix Polio"></display>
                  </coding>
               </vaccineCode>
               <targetDisease>
                  <coding>
                     <system value="http://snomed.info/sct"></system>
                     <code value="72093006"></code>
                     <display value="Poliomyelitis vaccination"></display>
                  </coding>
               </targetDisease>
               <forecastStatus>
                  <coding>
                     <system value="http://terminology.hl7.org/CodeSystem/immunization-recommendation-status"></system>
                     <code value="due"></code>
                     <display value="Due"></display>
                  </coding>
               </forecastStatus>
               <forecastReason>
                  <coding>
                     <system value="urn:oid:2.16.756.5.30.1.127.3.3.4"></system>
                     <code value="41501"></code>
                     <display value="Empfohlene Basisimpfungen"></display>
                  </coding>
               </forecastReason>
            </recommendation>
         </ImmunizationRecommendation>
      </resource>
   </entry>
   <entry>
      <fullUrl value="http://test.fhir.ch/r4/ImmunizationRecommendation/immunizationRecommendation2"></fullUrl>
      <resource>
         <ImmunizationRecommendation xmlns="http://hl7.org/fhir">
            <id value="immunizationRecommendation2"></id>
            <meta>
               <profile value="http://fhir.ch/ig/ch-vacd/StructureDefinition/ch-vacd-section-immunization-recommendations"></profile>
            </meta>
            <identifier>
               <system value="urn:oid:2.16.756.5.30.1.147.1.3.1"></system>
               <value value="2"></value>
            </identifier>
            <patient>
               <reference value="Patient/patient1"></reference>
            </patient>
            <date value="2021-02-05T07:42:15+01:00"></date>
            <recommendation>
               <vaccineCode>
                  <coding>
                     <system value="http://swissmedic.ch/ns/authorizationnumber/vs"></system>
                     <code value="58317"></code>
                     <display value="Fluad"></display>
                  </coding>
               </vaccineCode>
               <targetDisease>
                  <coding>
                     <system value="http://snomed.info/sct"></system>
                     <code value="28877009"></code>
                     <display value="Cholera vaccination"></display>
                  </coding>
               </targetDisease>
               <forecastStatus>
                  <coding>
                     <system value="http://terminology.hl7.org/CodeSystem/immunization-recommendation-status"></system>
                     <code value="due"></code>
                     <display value="Due"></display>
                  </coding>
               </forecastStatus>
               <forecastReason>
                  <coding>
                     <system value="urn:oid:2.16.756.5.30.1.127.3.3.4"></system>
                     <code value="41503"></code>
                     <display value="Empfohlene Impfungen für Risikogruppen"></display>
                  </coding>
               </forecastReason>
            </recommendation>
         </ImmunizationRecommendation>
      </resource>
   </entry>
</Bundle>